{
  "resourceType": "Bundle",
  "type": "transaction",
  "entry": [
    {
      "fullUrl": "urn:uuid:00000000-0000-0000-0000-000000012345",
      "resource": {
        "resourceType": "Patient",
        "id": "12345",
        "text": {
          "status": "generated",
          "div": "<div xmlns=\"http://www.w3.org/1999/xhtml\">Patient: Wang Xiao-Mei</div>"
        },
        "name": [
          {
            "family": "王",
            "given": [
              "小美"
            ]
          }
        ],
        "gender": "female"
      },
      "request": {
        "method": "PUT",
        "url": "Patient/12345"
      }
    },
    {
      "fullUrl": "urn:uuid:00000000-0000-0000-0000-000000000001",
      "resource": {
        "resourceType": "Device",
        "id": "device-aw-s8",
        "text": {
          "status": "generated",
          "div": "<div xmlns=\"http://www.w3.org/1999/xhtml\">Device: Apple Watch Series 8</div>"
        },
        "manufacturer": "Apple",
        "modelNumber": "Series 8",
        "patient": {
          "reference": "urn:uuid:00000000-0000-0000-0000-000000012345"
        },
        "type": {
          "coding": [
            {
              "system": "http://snomed.info/sct",
              "code": "49062001",
              "display": "Device"
            }
          ]
        }
      },
      "request": {
        "method": "PUT",
        "url": "Device/device-aw-s8"
      }
    },
    {
      "fullUrl": "urn:uuid:00000000-0000-0000-0000-000000000002",
      "resource": {
        "resourceType": "Observation",
        "status": "final",
        "text": {
          "status": "generated",
          "div": "<div xmlns=\"http://www.w3.org/1999/xhtml\">Heart Rate: 110 bpm</div>"
        },
        "category": [
          {
            "coding": [
              {
                "system": "http://terminology.hl7.org/CodeSystem/observation-category",
                "code": "vital-signs",
                "display": "Vital Signs"
              }
            ]
          }
        ],
        "code": {
          "coding": [
            {
              "system": "http://loinc.org",
              "code": "8867-4",
              "display": "Heart rate"
            }
          ]
        },
        "subject": {
          "reference": "urn:uuid:00000000-0000-0000-0000-000000012345"
        },
        "performer": [
          {
            "reference": "urn:uuid:00000000-0000-0000-0000-000000012345"
          }
        ],
        "device": {
          "reference": "urn:uuid:00000000-0000-0000-0000-000000000001"
        },
        "effectiveDateTime": "2025-12-06T22:00:00+08:00",
        "valueQuantity": {
          "value": 110,
          "unit": "bpm",
          "system": "http://unitsofmeasure.org",
          "code": "/min"
        }
      },
      "request": {
        "method": "POST",
        "url": "Observation"
      }
    },
    {
      "fullUrl": "urn:uuid:00000000-0000-0000-0000-000000000003",
      "resource": {
        "resourceType": "Observation",
        "status": "final",
        "text": {
          "status": "generated",
          "div": "<div xmlns=\"http://www.w3.org/1999/xhtml\">HRV: 20 ms</div>"
        },
        "category": [
          {
            "coding": [
              {
                "system": "http://terminology.hl7.org/CodeSystem/observation-category",
                "code": "vital-signs",
                "display": "Vital Signs"
              }
            ]
          }
        ],
        "code": {
          "coding": [
            {
              "system": "http://loinc.org",
              "code": "80404-7",
              "display": "R-R interval.standard deviation (Heart rate variability)"
            }
          ]
        },
        "subject": {
          "reference": "urn:uuid:00000000-0000-0000-0000-000000012345"
        },
        "performer": [
          {
            "reference": "urn:uuid:00000000-0000-0000-0000-000000012345"
          }
        ],
        "device": {
          "reference": "urn:uuid:00000000-0000-0000-0000-000000000001"
        },
        "effectiveDateTime": "2025-12-06T22:00:00+08:00",
        "valueQuantity": {
          "value": 20,
          "unit": "ms",
          "system": "http://unitsofmeasure.org",
          "code": "ms"
        }
      },
      "request": {
        "method": "POST",
        "url": "Observation"
      }
    },
    {
      "fullUrl": "urn:uuid:00000000-0000-0000-0000-000000000004",
      "resource": {
        "resourceType": "Observation",
        "status": "final",
        "text": {
          "status": "generated",
          "div": "<div xmlns=\"http://www.w3.org/1999/xhtml\">SpO2: 94%</div>"
        },
        "category": [
          {
            "coding": [
              {
                "system": "http://terminology.hl7.org/CodeSystem/observation-category",
                "code": "vital-signs",
                "display": "Vital Signs"
              }
            ]
          }
        ],
        "code": {
          "coding": [
            {
              "system": "http://loinc.org",
              "code": "2708-6",
              "display": "Oxygen saturation in Arterial blood"
            }
          ]
        },
        "subject": {
          "reference": "urn:uuid:00000000-0000-0000-0000-000000012345"
        },
        "performer": [
          {
            "reference": "urn:uuid:00000000-0000-0000-0000-000000012345"
          }
        ],
        "device": {
          "reference": "urn:uuid:00000000-0000-0000-0000-000000000001"
        },
        "effectiveDateTime": "2025-12-06T22:00:00+08:00",
        "valueQuantity": {
          "value": 94,
          "unit": "%",
          "system": "http://unitsofmeasure.org",
          "code": "%"
        }
      },
      "request": {
        "method": "POST",
        "url": "Observation"
      }
    },
    {
      "fullUrl": "urn:uuid:00000000-0000-0000-0000-000000000005",
      "resource": {
        "resourceType": "Observation",
        "status": "final",
        "text": {
          "status": "generated",
          "div": "<div xmlns=\"http://www.w3.org/1999/xhtml\">Sleep Duration: 4.5h</div>"
        },
        "category": [
          {
            "coding": [
              {
                "system": "http://terminology.hl7.org/CodeSystem/observation-category",
                "code": "activity",
                "display": "Activity"
              }
            ]
          }
        ],
        "code": {
          "coding": [
            {
              "system": "http://snomed.info/sct",
              "code": "248263006",
              "display": "Duration of sleep"
            }
          ]
        },
        "subject": {
          "reference": "urn:uuid:00000000-0000-0000-0000-000000012345"
        },
        "performer": [
          {
            "reference": "urn:uuid:00000000-0000-0000-0000-000000012345"
          }
        ],
        "device": {
          "reference": "urn:uuid:00000000-0000-0000-0000-000000000001"
        },
        "effectiveDateTime": "2025-12-06T07:00:00+08:00",
        "valueQuantity": {
          "value": 4.5,
          "unit": "h",
          "system": "http://unitsofmeasure.org",
          "code": "h"
        }
      },
      "request": {
        "method": "POST",
        "url": "Observation"
      }
    },
    {
      "fullUrl": "urn:uuid:00000000-0000-0000-0000-000000000006",
      "resource": {
        "resourceType": "RiskAssessment",
        "status": "final",
        "text": {
          "status": "generated",
          "div": "<div xmlns=\"http://www.w3.org/1999/xhtml\">Prediction: High Risk of Cardiac Arrest (82%)</div>"
        },
        "subject": {
          "reference": "urn:uuid:00000000-0000-0000-0000-000000012345"
        },
        "occurrenceDateTime": "2025-12-06T22:05:00+08:00",
        "basis": [
          {
            "reference": "urn:uuid:00000000-0000-0000-0000-000000000002"
          },
          {
            "reference": "urn:uuid:00000000-0000-0000-0000-000000000003"
          },
          {
            "reference": "urn:uuid:00000000-0000-0000-0000-000000000004"
          },
          {
            "reference": "urn:uuid:00000000-0000-0000-0000-000000000005"
          }
        ],
        "prediction": [
          {
            "outcome": {
              "coding": [
                {
                  "system": "http://snomed.info/sct",
                  "code": "410429000",
                  "display": "Cardiac arrest"
                }
              ],
              "text": "Risk of Cardiac Arrest"
            },
            "probabilityDecimal": 0.82,
            "rationale": "Combined low HRV (20ms), elevated HR, and poor sleep duration (4.5h)."
          }
        ]
      },
      "request": {
        "method": "POST",
        "url": "RiskAssessment"
      }
    }
  ]
}