
{
  "resourceType": "ServiceRequest",
  "id": "er-instruction-001",
  "meta": {
    "profile": [
      "http://hl7.org/fhir/StructureDefinition/ServiceRequest"
    ]
  },
  "text": {
    "status": "generated",
    "div": "<div xmlns=\"http://www.w3.org/1999/xhtml\">Emergency Instruction: Start CPR immediately. Voice call required.</div>"
  },
  "contained": [
    {
      "resourceType": "Patient",
      "id": "pat-12345",
      "name": [
        {
          "family": "王",
          "given": [
            "小美"
          ]
        }
      ]
    },
    {
      "resourceType": "Practitioner",
      "id": "doc-er-01",
      "name": [
        {
          "family": "ER",
          "given": [
            "Doctor"
          ]
        }
      ]
    }
  ],
  "extension": [
    {
      "url": "http://projectathon.fhir.tw/StructureDefinition/voice-call-required",
      "valueBoolean": true
    }
  ],
  "status": "active",
  "intent": "order",
  "priority": "stat",
  "code": {
    "coding": [
      {
        "system": "http://snomed.info/sct",
        "code": "409073007",
        "display": "Instruction"
      }
    ],
    "text": "急救指導"
  },
  "subject": {
    "reference": "#pat-12345",
    "display": "王小美"
  },
  "requester": {
    "reference": "#doc-er-01",
    "display": "急診室值班醫師"
  },
  "note": [
    {
      "text": "第一步:確認患者意識。若無反應,請按壓胸口。(Step 1: Check responsiveness. If none, start CPR.)",
      "time": "2023-10-27T10:05:00+08:00"
    }
  ]
}

